File: Data UV Vis/UNJ_19-7-2025/UNJ_19-7-2025/G-ZnO50Persen/REFdanABS.csv
sample3,,sample4,,
Wavelength (nm),%R,Wavelength (nm),Abs,
800,9.33614,800,1.02986,
799,9.36678,799,1.02811,
798,9.36936,798,1.02776,
797,9.39742,797,1.02744,
796,9.35902,796,1.02767,
795,9.3716,795,1.02657,
794,9.38517,794,1.02681,
793,9.40183,793,1.02794,
792,9.37441,792,1.02594,
791,9.38386,791,1.02647,
790,9.39609,790,1.02744,
789,9.41115,789,1.02557,
788,9.4062,788,1.02552,
787,9.39379,787,1.02616,
786,9.42751,786,1.0256,
785,9.4497,785,1.02447,
784,9.41592,784,1.02424,
783,9.4472,783,1.02435,
782,9.44532,782,1.02531,
781,9.47194,781,1.02483,
780,9.44345,780,1.02335,
779,9.4609,779,1.02311,
778,9.46105,778,1.02343,
777,9.45321,777,1.023,
776,9.49374,776,1.02259,
775,9.46458,775,1.02329,
774,9.47196,774,1.02295,
773,9.48262,773,1.02297,
772,9.51102,772,1.0199,
771,9.49234,771,1.02112,
770,9.50746,770,1.02168,
769,9.51399,769,1.02066,
768,9.52596,768,1.02149,
767,9.54467,767,1.01988,
766,9.53023,766,1.01881,
765,9.53354,765,1.02042,
764,9.55486,764,1.01998,
763,9.53544,763,1.01901,
762,9.56024,762,1.01928,
761,9.54157,761,1.01835,
760,9.56193,760,1.01822,
759,9.57902,759,1.01818,
758,9.58139,758,1.01714,
757,9.6027,757,1.0173,
756,9.60407,756,1.0167,
755,9.58846,755,1.01706,
754,9.59249,754,1.0169,
753,9.61004,753,1.01657,
752,9.60716,752,1.01633,
751,9.59713,751,1.01622,
750,9.62056,750,1.01583,
749,9.65042,749,1.016011,
748,9.63109,748,1.01586,
747,9.64506,747,1.01465,
746,9.63941,746,1.01578,
745,9.63148,745,1.0155,
744,9.64275,744,1.01517,
743,9.62378,743,1.01539,
742,9.63233,742,1.015,
741,9.63763,741,1.01523,
740,9.64969,740,1.0152,
739,9.65938,739,1.01398,
738,9.65795,738,1.01372,
737,9.63758,737,1.015,
736,9.65049,736,1.01393,
735,9.65047,735,1.01503,
734,9.65555,734,1.01438,
733,9.6452,733,1.01522,
732,9.62644,732,1.01557,
731,9.64495,731,1.015,
730,9.63263,730,1.01551,
729,9.62044,729,1.01683,
728,9.6333,728,1.01512,
727,9.62964,727,1.01708,
726,9.62317,726,1.01639,
725,9.58204,725,1.01665,
724,9.58326,724,1.01696,
723,9.58581,723,1.01838,
722,9.58526,722,1.01812,
721,9.58181,721,1.01891,
720,9.56486,720,1.01918,
719,9.55177,719,1.01976,
718,9.59879,718,1.01712,
717,9.60385,717,1.01642,
716,9.597,716,1.01695,
715,9.60783,715,1.01659,
714,9.62673,714,1.01706,
713,9.63263,713,1.01577,
712,9.62745,712,1.01559,
711,9.62433,711,1.01641,
710,9.64944,710,1.01554,
709,9.66587,709,1.01435,
708,9.6652,708,1.01479,
707,9.69079,707,1.01418,
706,9.68702,706,1.01362,
705,9.7073,705,1.01245,
704,9.72701,704,1.01113,
703,9.74872,703,1.01134,
702,9.77176,702,1.00939,
701,9.79786,701,1.00888,
700,9.77804,700,1.0092,
699,9.80787,699,1.00826,
698,9.8048,698,1.00693,
697,9.84408,697,1.00553,
696,9.82316,696,1.00656,
695,9.855,695,1.00593,
694,9.87561,694,1.00479,
693,9.87603,693,1.0046,
692,9.873,692,1.00412,
691,9.89305,691,1.0046,
690,9.90519,690,1.00371,
689,9.93123,689,1.00301,
688,9.9122,688,1.00331,
687,9.91528,687,1.00248,
686,9.93666,686,1.00179,
685,9.95682,685,1.00184,
684,9.97927,684,1.00121,
683,9.97549,683,1.00056,
682,9.9959,682,1.00014,
681,10.0099,681,1.00004,
680,10.0011,680,0.998692,
679,10.0049,679,0.99897,
678,10.0196,678,0.998338,
677,10.0171,677,0.998663,
676,10.0243,676,0.997776,
675,10.0405,675,0.997975,
674,10.0515,674,0.996235,
673,10.0868,673,0.996117,
672,10.0728,672,0.995854,
671,10.0793,671,0.995813,
670,10.1026,670,0.995516,
669,10.1175,669,0.994199,
668,10.1014,668,0.99511,
667,10.1182,667,0.993802,
666,10.1175,666,0.993778,
665,10.1369,665,0.993698,
664,10.1504,664,0.993868,
663,10.1509,663,0.99273,
662,10.1737,662,0.993197,
661,10.1788,661,0.992417,
660,10.1687,660,0.991261,
659,10.1999,659,0.991288,
658,10.1993,658,0.991839,
657,10.2004,657,0.99056,
656,10.2006,656,0.991258,
655,10.1916,655,0.990249,
654,10.2137,654,0.990083,
653,10.22,653,0.989938,
652,10.2403,652,0.989605,
651,10.2493,651,0.989491,
650,10.2443,650,0.989016,
649,10.24895,649,0.988125,
648,10.2655,648,0.988317,
647,10.2782,647,0.988545,
646,10.262,646,0.988232,
645,10.2913,645,0.987417,
644,10.3115,644,0.986773,
643,10.3169,643,0.986124,
642,10.3118,642,0.987101,
641,10.3036,641,0.986614,
640,10.3291,640,0.985916,
639,10.3304,639,0.985661,
638,10.3284,638,0.98542,
637,10.3486,637,0.98495,
636,10.3587,636,0.984802,
635,10.3515,635,0.984207,
634,10.3725,634,0.984191,
633,10.3782,633,0.983586,
632,10.3699,632,0.983338,
631,10.3862,631,0.983348,
630,10.4026,630,0.98305,
629,10.4003,629,0.981928,
628,10.3923,628,0.982397,
627,10.4256,627,0.982056,
626,10.4113,626,0.981689,
625,10.4188,625,0.98155,
624,10.4306,624,0.981428,
623,10.4552,623,0.980812,
622,10.4626,622,0.980278,
621,10.4515,621,0.980074,
620,10.4682,620,0.980109,
619,10.4563,619,0.979975,
618,10.4923,618,0.979385,
617,10.5024,617,0.978791,
616,10.4951,616,0.978808,
615,10.4882,615,0.978605,
614,10.5167,614,0.978606,
613,10.5143,613,0.977864,
612,10.5159,612,0.977324,
611,10.5042,611,0.977541,
610,10.5189,610,0.97682,
609,10.5397,609,0.976809,
608,10.5537,608,0.976305,
607,10.5428,607,0.976827,
606,10.555,606,0.97533,
605,10.5848,605,0.974794,
604,10.575,604,0.9755,
603,10.5921,603,0.974639,
602,10.5974,602,0.974081,
601,10.5989,601,0.974238,
600,10.5983,600,0.974882,
599,10.6233,599,0.973455,
598,10.619,598,0.973093,
597,10.6273,597,0.973321,
596,10.6606,596,0.972419,
595,10.6441,595,0.971961,
594,10.6639,594,0.972156,
593,10.6688,593,0.971508,
592,10.6915,592,0.971296,
591,10.6832,591,0.971583,
590,10.6784,590,0.970659,
589,10.7072,589,0.969799,
588,10.7052,588,0.969722,
587,10.712,587,0.96923,
586,10.7319,586,0.969243,
585,10.7364,585,0.969096,
584,10.7298,584,0.968716,
583,10.7582,583,0.968342,
582,10.7639,582,0.967373,
581,10.7647,581,0.967227,
580,10.7729,580,0.96756,
579,10.7893,579,0.96644,
578,10.7887,578,0.967261,
577,10.7947,577,0.966138,
576,10.7969,576,0.966159,
575,10.8134,575,0.965685,
574,10.8196,574,0.965728,
573,10.8294,573,0.965367,
572,10.8457,572,0.964566,
571,10.8324,571,0.96468,
570,10.8552,570,0.964209,
569,10.861,569,0.964192,
568,10.8423,568,0.964882,
567,10.8594,567,0.964211,
566,10.8661,566,0.963895,
565,10.8572,565,0.963395,
564,10.8635,564,0.96313,
563,10.8779,563,0.963248,
562,10.8879,562,0.962623,
561,10.874,561,0.962624,
560,10.8908,560,0.963221,
559,10.8968,559,0.962409,
558,10.905,558,0.962424,
557,10.8895,557,0.962184,
556,10.9058,556,0.962764,
555,10.9126,555,0.96181,
554,10.9122,554,0.962154,
553,10.9091,553,0.962235,
552,10.8982,552,0.962028,
551,10.921,551,0.96201,
550,10.9202,550,0.961244,
549,10.9293,549,0.961901,
548,10.9324,548,0.961035,
547,10.9309,547,0.961098,
546,10.9315,546,0.961411,
545,10.9317,545,0.961266,
544,10.9449,544,0.96103,
543,10.9526,543,0.960412,
542,10.9432,542,0.960421,
541,10.9527,541,0.960186,
540,10.9527,540,0.959829,
539,10.9588,539,0.959865,
538,10.9726,538,0.959432,
537,10.9741,537,0.959117,
536,10.9733,536,0.959531,
535,10.9911,535,0.958769,
534,11.001,534,0.958736,
533,11.0206,533,0.958009,
532,11.0169,532,0.957842,
531,11.0441,531,0.956765,
530,11.051,530,0.956039,
529,11.0587,529,0.955392,
528,11.0901,528,0.955057,
527,11.0943,527,0.954287,
526,11.1103,526,0.953719,
525,11.135,525,0.953948,
524,11.1615,524,0.952534,
523,11.179,523,0.951411,
522,11.1921,522,0.951213,
521,11.2087,521,0.949672,
520,11.2189,520,0.949483,
519,11.2562,519,0.94839,
518,11.2591,518,0.947622,
517,11.289,517,0.947263,
516,11.31,516,0.946912,
515,11.3363,515,0.945009,
514,11.3593,514,0.944317,
513,11.3706,513,0.944428,
512,11.386,512,0.943192,
511,11.4099,511,0.942548,
510,11.4082,510,0.942137,
509,11.4307,509,0.941341,
508,11.4567,508,0.940711,
507,11.4508,507,0.940002,
506,11.4896,506,0.939652,
505,11.5133,505,0.939538,
504,11.515,504,0.938517,
503,11.5107,503,0.937868,
502,11.5357,502,0.938134,
501,11.5534,501,0.937042,
500,11.5648,500,0.936561,
499,11.5776,499,0.936459,
498,11.624,498,0.93541,
497,11.6166,497,0.934634,
496,11.6336,496,0.934228,
495,11.6338,495,0.93466,
494,11.6446,494,0.933213,
493,11.6518,493,0.933111,
492,11.676,492,0.932467,
491,11.67,491,0.932199,
490,11.6949,490,0.931901,
489,11.7117,489,0.931423,
488,11.7167,488,0.930326,
487,11.7227,487,0.930369,
486,11.734,486,0.930023,
485,11.7611,485,0.929489,
484,11.7771,484,0.928904,
483,11.7674,483,0.929118,
482,11.7747,482,0.928855,
481,11.7722,481,0.928666,
480,11.7783,480,0.928147,
479,11.798,479,0.928008,
478,11.799,478,0.928305,
477,11.8084,477,0.927987,
476,11.8117,476,0.926803,
475,11.818,475,0.926779,
474,11.8428,474,0.926696,
473,11.8417,473,0.926752,
472,11.8745,472,0.925111,
471,11.9067,471,0.924379,
470,11.8943,470,0.92411,
469,11.9168,469,0.924002,
468,11.9394,468,0.922699,
467,11.9474,467,0.921869,
466,11.9674,466,0.920693,
465,12.0075,465,0.919811,
464,12.0251,464,0.919459,
463,12.0541,463,0.919269,
462,12.0726,462,0.918481,
461,12.0576,461,0.91888,
460,12.0882,460,0.91758,
459,12.0976,459,0.916954,
458,12.1003,458,0.916551,
457,12.1475,457,0.916163,
456,12.1551,456,0.915504,
455,12.1691,455,0.915381,
454,12.1664,454,0.914064,
453,12.1857,453,0.914109,
452,12.2048,452,0.914108,
451,12.2345,451,0.912126,
450,12.2359,450,0.911129,
449,12.2845,449,0.911233,
448,12.2702,448,0.91068,
447,12.3149,447,0.9093346,
446,12.3305,446,0.90919,
445,12.3427,445,0.908826,
444,12.3489,444,0.908024,
443,12.3541,443,0.908204,
442,12.3865,442,0.907155,
441,12.4153,441,0.906371,
440,12.4194,440,0.906096,
439,12.4302,439,0.905281,
438,12.4544,438,0.904814,
437,12.4882,437,0.904089,
436,12.4877,436,0.903949,
435,12.4943,435,0.902776,
434,12.5201,434,0.901809,
433,12.5402,433,0.901311,
432,12.5585,432,0.900248,
431,12.6056,431,0.899012,
430,12.6105,430,0.899449,
429,12.6217,429,0.898809,
428,12.6235,428,0.898918,
427,12.6504,427,0.897506,
426,12.666,426,0.89796,
425,12.7043,425,0.896143,
424,12.69452,424,0.895972,
423,12.7129,423,0.895751,
422,12.7224,422,0.895828,
421,12.7535,421,0.894428,
420,12.7497,420,0.894099,
419,12.8013,419,0.89373,
418,12.7873,418,0.893033,
417,12.7976,417,0.89197,
416,12.7903,416,0.892079,
415,12.841,415,0.892507,
414,12.8499,414,0.891244,
413,12.846,413,0.891964,
412,12.85,412,0.890452,
411,12.8526,411,0.890396,
410,12.9016,410,0.890784,
409,12.8585,409,0.891234,
408,12.862,408,0.891327,
407,12.8519,407,0.890535,
406,12.8488,406,0.891375,
405,12.8436,405,0.891321,
404,12.8467,404,0.891409,
403,12.8453,403,0.890803,
402,12.8324,402,0.892608,
401,12.8137,401,0.893604,
400,12.736,400,0.895925,
399,12.666,399,0.898212,
398,12.6111,398,0.899007,
397,12.5562,397,0.901345,
396,12.5156,396,0.90383,
395,12.3701,395,0.907275,
394,12.2811,394,0.911006,
393,12.1559,393,0.915443,
392,12.0321,392,0.920009,
391,11.8526,391,0.926301,
390,11.6945,390,0.932929,
389,11.4981,389,0.939753,
388,11.3021,388,0.948933,
387,11.0647,387,0.959247,
386,10.7991,386,0.970149,
385,10.4362,385,0.982056,
384,10.1644,384,0.996089,
383,9.80336,383,1.01021,
382,9.45971,382,1.0245,
381,9.09301,381,1.04204,
380,8.76837,380,1.06063,
379,8.43879,379,1.07581,
378,8.15853,378,1.09103,
377,7.82751,377,1.10766,
376,7.58197,376,1.12049,
375,7.38298,375,1.13264,
374,7.21023,374,1.14278,
373,7.10224,373,1.15023,
372,6.97317,372,1.15609,
371,6.93696,371,1.15745,
370,6.898,370,1.16064,
369,6.86939,369,1.16021,
368,6.83856,368,1.16709,
367,6.87023,367,1.16543,
366,6.80851,366,1.16795,
365,6.77966,365,1.16889,
364,6.8352,364,1.17015,
363,6.78296,363,1.16551,
362,6.77382,362,1.1665,
361,6.83749,361,1.16403,
360,6.81621,360,1.16934,
359,6.78018,359,1.16338,
358,6.92332,358,1.16502,
357,6.75013,357,1.16851,
356,6.88665,356,1.16467,
355,6.95187,355,1.15953,
354,6.94459,354,1.15448,
353,6.9148,353,1.15517,
352,6.97704,352,1.15361,
351,7.20502,351,1.14841,
350,7.23462,350,1.13764,
349,7.38837,349,1.12715,
348,8.08529,348,1.09129,
347,8.1329,347,1.08928,
346,8.10472,346,1.08695,
345,8.17761,345,1.08874,
344,8.19006,344,1.08763,
343,8.15714,343,1.08768,
342,8.28318,342,1.08343,
341,8.21029,341,1.08432,
340,8.16185,340,1.08601,
339,8.20549,339,1.08639,
338,8.19933,338,1.0824,
337,8.18057,337,1.08342,
336,8.20655,336,1.08584,
335,8.25454,335,1.08503,
334,8.18797,334,1.08222,
333,8.16161,333,1.08823,
332,8.21607,332,1.08113,
331,8.27355,331,1.08472,
330,8.26449,330,1.08085,
329,8.27287,329,1.08319,
328,8.25735,328,1.07882,
327,8.26362,327,1.08277,
326,8.32769,326,1.08348,
325,8.32036,325,1.082,
324,8.29226,324,1.08336,
323,8.33334,323,1.07937,
322,8.33897,322,1.07707,
321,8.28946,321,1.07927,
320,8.3382,320,1.07687,
319,8.36492,319,1.07426,
318,8.50087,318,1.07187,
317,8.46517,317,1.07051,
316,8.46541,316,1.07057,
315,8.50901,315,1.07224,
314,8.44397,314,1.06961,
313,8.53179,313,1.07008,
312,8.56709,312,1.06979,
311,8.5783,311,1.07122,
310,8.49472,310,1.06666,
309,8.51354,309,1.06745,
308,8.54967,308,1.07203,
307,8.56441,307,1.07119,
306,8.62308,306,1.06659,
305,8.58787,305,1.06486,
304,8.59914,304,1.06801,
303,8.56335,303,1.06541,
302,8.65291,302,1.07049,
301,8.61678,301,1.06425,
300,8.65187,300,1.06419,
299,8.60075,299,1.06658,
298,8.59509,298,1.06452,
297,8.70297,297,1.06576,
296,8.63342,296,1.06025,
295,8.79104,295,1.06436,
294,8.69704,294,1.05557,
293,8.71352,293,1.06405,
292,8.67703,292,1.06222,
291,8.62893,291,1.06018,
290,8.6754,290,1.06038,
289,8.70071,289,1.06442,
288,8.79042,288,1.05769,
287,8.74253,287,1.05948,
286,8.77237,286,1.05425,
285,8.88702,285,1.05342,
284,8.84437,284,1.0554,
283,8.83458,283,1.05131,
282,8.90753,282,1.05482,
281,8.92047,281,1.04872,
280,8.88579,280,1.04815,
279,8.87619,279,1.04845,
278,8.92776,278,1.04877,
277,8.94539,277,1.04701,
276,8.96528,276,1.0501,
275,8.97378,275,1.05015,
274,8.96041,274,1.04548,
273,9.0124,273,1.04589,
272,8.98342,272,1.04324,
271,8.96988,271,1.04803,
270,9.09559,270,1.04367,
269,9.04215,269,1.04141,
268,9.11306,268,1.04501,
267,9.04632,267,1.04391,
266,9.07675,266,1.04355,
265,9.11491,265,1.04093,
264,9.08275,264,1.04279,
263,9.1089,263,1.04246,
262,9.10824,262,1.03847,
261,9.14788,261,1.03752,
260,9.21303,260,1.03689,
259,9.24037,259,1.03265,
258,9.19324,258,1.03494,
257,9.28175,257,1.03083,
256,9.30376,256,1.03168,
255,9.32127,255,1.03294,
254,9.3085,254,1.02799,
253,9.41934,253,1.02775,
252,9.38413,252,1.02406,
251,9.48709,251,1.02377,
250,9.52645,250,1.0214,
249,9.56032,249,1.01639,
248,9.48266,248,1.0176,
247,9.63628,247,1.01422,
246,9.65972,246,1.01618,
245,9.73441,245,1.01049,
244,9.76534,244,1.00755,
243,9.7825,243,1.00848,
242,9.89215,242,1.0018,
241,9.91667,241,1.00074,
240,10.0077,240,0.99981,
239,10.0644,239,0.996714,
238,10.1003,238,0.995635,
237,10.1841,237,0.994,
236,10.2543,236,0.988474,
235,10.2244,235,0.987542,
234,10.3793,234,0.983449,
233,10.434,233,0.980665,
232,10.5884,232,0.978206,
231,10.6055,231,0.978861,
230,10.6895,230,0.97128,
229,10.717,229,0.968275,
228,10.7715,228,0.965689,
227,10.8528,227,0.960632,
226,10.8886,226,0.962787,
225,10.9302,225,0.959489,
224,10.9695,224,0.959229,
223,11.0617,223,0.957285,
222,11.073,222,0.952191,
221,11.0967,221,0.955647,
220,11.0995,220,0.947363,
219,11.2757,219,0.950618,
218,11.2862,218,0.946217,
217,11.3279,217,0.942157,
216,11.477,216,0.94584,
215,11.6009,215,0.939161,
214,11.6938,214,0.933008,
213,11.7714,213,0.924104,
212,11.8185,212,0.922368,
211,12.1376,211,0.917253,
210,12.1869,210,0.917008,
209,12.1949,209,0.91263,
208,12.6996,208,0.89856,
207,12.7684,207,0.893443,
206,12.8776,206,0.88721,
205,13.3638,205,0.879235,
204,13.5906,204,0.870125,
203,13.8882,203,0.86216,
202,14.1433,202,0.851299,
201,14.4618,201,0.832777,
200,15.0778,200,0.823768,

sample3,
sample3
Collection Time: 19/07/2025 12:54:50
Operator Name  :
Scan Software Version: 4.20(470)
Parameter List :
Instrument                        Cary 100
Instrument Version                12.00
Start (nm)                        800.00
Stop (nm)                         200.00
X Mode                            Nanometers
Y Mode                            %R
UV-Vis Scan Rate (nm/min)         600.000
UV-Vis Data Interval (nm)         1.000
UV-Vis Ave. Time (sec)            0.100
UV-Vis SBW (nm)                   2.0
Beam Mode                         Double
Signal-to-noise Mode              Off
UV Source                         On
Vis Source                        On
Source Changeover (nm)            350.00
Baseline Correction               On
Baseline Type                     Baseline correction
Baseline File Name
Baseline Std Ref File Name
Cycle Mode                        Off
Comments
Method Log     :
Method Name    :
Date/Time stamp: 19/07/2025 11:45:35
Method Modifications:
Auto Lamps Off Changed: 19/07/2025 12:00:26, Old:0, New:1
Baseline Correction Changed: 19/07/2025 12:00:26, Old:0, New:1
Y mode Changed: 19/07/2025 12:51:46, Old:Abs, New:%R
End Method Modifications
<SBW (nm)> , 2.00
<Energy> , 171.00
<Current Wavelength> , 200.00

sample4,
sample4
Collection Time: 19/07/2025 12:58:48
Operator Name  :
Scan Software Version: 4.20(470)
Parameter List :
Instrument                        Cary 100
Instrument Version                12.00
Start (nm)                        800.00
Stop (nm)                         200.00
X Mode                            Nanometers
Y Mode                            Abs
UV-Vis Scan Rate (nm/min)         600.000
UV-Vis Data Interval (nm)         1.000
UV-Vis Ave. Time (sec)            0.100
UV-Vis SBW (nm)                   2.0
Beam Mode                         Double
Signal-to-noise Mode              Off
UV Source                         On
Vis Source                        On
Source Changeover (nm)            350.00
Baseline Correction               On
Baseline Type                     Baseline correction
Baseline File Name
Baseline Std Ref File Name
Cycle Mode                        Off
Comments
Method Log     :
Method Name    :
Date/Time stamp: 19/07/2025 11:45:35
Method Modifications:
Auto Lamps Off Changed: 19/07/2025 12:00:26, Old:0, New:1
Baseline Correction Changed: 19/07/2025 12:00:26, Old:0, New:1
Y mode Changed: 19/07/2025 12:51:46, Old:Abs, New:%R
Y mode Changed: 19/07/2025 12:58:28, Old:%R, New:Abs
End Method Modifications
<SBW (nm)> , 2.00
<Energy> , 172.00
<Current Wavelength> , 200.00